Folder: pythoncodebank/Tefas/tahminler

Note: README.md
# Python_Code_Bank

File: _ann_TGA.csv
x_test,y_test,y_pred,GerçekFark,TahminFark,Gerçek,Tahmin,Ongoru,Skor,mean_squared_error
0.030105,0.030097,0.0480717,-8.000061e-06,0.0179667,False,True,False,-16.1732,0.0206411
0.032745,0.032641,0.0487274,-0.000103999,0.0159824,False,True,False,-16.1732,0.0206411
0.03332,0.033435,0.0488432,0.000115,0.0155232,True,True,True,-16.1732,0.0206411
0.028366,0.028439,0.0478045,7.300079e-05,0.0194385,True,True,True,-16.1732,0.0206411
0.032941,0.032965,0.0487721,2.4002e-05,0.0158311,True,True,True,-16.1732,0.0206411
0.030497,0.030603,0.0482133,0.000106001,0.0177163,True,True,True,-16.1732,0.0206411
0.027652,0.027759,0.0476925,0.000107002,0.0200405,True,True,True,-16.1732,0.0206411
0.02538,0.025324,0.0472673,-5.60004e-05,0.0218873,False,True,False,-16.1732,0.0206411
0.027056,0.027138,0.0475912,8.200109e-05,0.0205352,True,True,True,-16.1732,0.0206411
0.030557,0.030629,0.0481726,7.200055e-05,0.0176156,True,True,True,-16.1732,0.0206411
0.033292,0.033251,0.0488199,-4.10005e-05,0.0155279,False,True,False,-16.1732,0.0206411
0.031954,0.031921,0.0485404,-3.30023e-05,0.0165864,False,True,False,-16.1732,0.0206411
0.028584,0.028682,0.0478467,9.799935e-05,0.0192627,True,True,True,-16.1732,0.0206411
0.020102,0.020169,0.0464338,6.69993e-05,0.0263318,True,True,True,-16.1732,0.0206411
0.021469,0.021454,0.0465504,-1.49999e-05,0.0250814,False,True,False,-16.1732,0.0206411
0.024537,0.024508,0.047107,-2.90014e-05,0.02257,False,True,False,-16.1732,0.0206411
0.033696,0.033657,0.0488938,-3.90001e-05,0.0151978,False,True,False,-16.1732,0.0206411
0.023806,0.023888,0.0469843,8.199923e-05,0.0231783,True,True,True,-16.1732,0.0206411
0.022577,0.02261,0.0467386,3.299862e-05,0.0241616,True,True,True,-16.1732,0.0206411
0.026672,0.026697,0.047521,2.50004e-05,0.020849,True,True,True,-16.1732,0.0206411
0.021278,0.021287,0.0465125,9.000301e-06,0.0252345,True,True,True,-16.1732,0.0206411
0.03593,0.036027,0.0491845,9.699911e-05,0.0132545,True,True,True,-16.1732,0.0206411
0.026156,0.026172,0.0474001,1.60001e-05,0.0212441,True,True,True,-16.1732,0.0206411
0.022494,0.022524,0.0467638,2.99998e-05,0.0242698,True,True,True,-16.1732,0.0206411
0.020425,0.020481,0.0463551,5.60004e-05,0.0259301,True,True,True,-16.1732,0.0206411
0.025636,0.025675,0.0473149,3.90001e-05,0.0216789,True,True,True,-16.1732,0.0206411
0.028868,0.02898,0.0478848,0.000112001,0.0190168,True,True,True,-16.1732,0.0206411
0.024023,0.02406,0.0470116,3.69996e-05,0.0229886,True,True,True,-16.1732,0.0206411
0.020774,0.020884,0.0464303,0.00011,0.0256563,True,True,True,-16.1732,0.0206411
0.034596,0.034697,0.0490032,0.000101,0.0144072,True,True,True,-16.1732,0.0206411
0.026936,0.027122,0.047568,0.000186,0.020632,True,True,True,-16.1732,0.0206411
0.033105,0.033202,0.048811,9.699911e-05,0.015706,True,True,True,-16.1732,0.0206411
0.033214,0.033255,0.0488118,4.10005e-05,0.0155978,True,True,True,-16.1732,0.0206411
0.020661,0.020582,0.0463916,-7.900037e-05,0.0257306,False,True,False,-16.1732,0.0206411
0.030233,0.030179,0.0481017,-5.39999e-05,0.0178687,False,True,False,-16.1732,0.0206411
0.033234,0.033036,0.0488203,-0.000197999,0.0155863,False,True,False,-16.1732,0.0206411
0.021169,0.021186,0.0464848,1.70004e-05,0.0253158,True,True,True,-16.1732,0.0206411
0.024196,0.024231,0.047048,3.49991e-05,0.022852,True,True,True,-16.1732,0.0206411
0.024231,0.024308,0.0470529,7.699989e-05,0.0228219,True,True,True,-16.1732,0.0206411
0.02725,0.027408,0.0476144,0.000158001,0.0203644,True,True,True,-16.1732,0.0206411
0.032525,0.032675,0.0486525,0.000150003,0.0161275,True,True,True,-16.1732,0.0206411
0.020215,0.020352,0.0463282,0.000137001,0.0261132,True,True,True,-16.1732,0.0206411
0.022861,0.023367,0.0468643,0.0005060006,0.0240033,True,True,True,-16.1732,0.0206411
0.022524,0.022523,0.0467678,-9.983778e-07,0.0242438,False,True,False,-16.1732,0.0206411
0.034372,0.034448,0.0489745,7.600337e-05,0.0146025,True,True,True,-16.1732,0.0206411
0.029546,0.029597,0.0479826,5.09992e-05,0.0184366,True,True,True,-16.1732,0.0206411
0.032898,0.032985,0.0487524,8.700043e-05,0.0158544,True,True,True,-16.1732,0.0206411
0.021307,0.021319,0.0465118,1.199916e-05,0.0252048,True,True,True,-16.1732,0.0206411
0.020019,0.020102,0.0464381,8.299947e-05,0.0264191,True,True,True,-16.1732,0.0206411
0.027501,0.027553,0.0476476,5.19995e-05,0.0201466,True,True,True,-16.1732,0.0206411
0.022569,0.02268,0.046749,0.000110999,0.02418,True,True,True,-16.1732,0.0206411
0.03423,0.03442,0.0489559,0.000189997,0.0147259,True,True,True,-16.1732,0.0206411
0.033587,0.033669,0.0488799,8.19974e-05,0.0152929,True,True,True,-16.1732,0.0206411
0.030459,0.030469,0.0481935,1.00005e-05,0.0177345,True,True,True,-16.1732,0.0206411
0.031508,0.031492,0.0484193,-1.60001e-05,0.0169113,False,True,False,-16.1732,0.0206411
0.024382,0.024354,0.0470764,-2.80011e-05,0.0226944,False,True,False,-16.1732,0.0206411
0.021061,0.021058,0.0464636,-2.99886e-06,0.0254026,False,True,False,-16.1732,0.0206411
0.026341,0.026369,0.0474238,2.79993e-05,0.0210828,True,True,True,-16.1732,0.0206411
0.022757,0.022782,0.046812,2.50004e-05,0.024055,True,True,True,-16.1732,0.0206411
0.02253,0.022494,0.0467655,-3.60012e-05,0.0242355,False,True,False,-16.1732,0.0206411
0.034405,0.034509,0.0489907,0.000103999,0.0145857,True,True,True,-16.1732,0.0206411
0.034697,0.034706,0.0490168,9.000301e-06,0.0143198,True,True,True,-16.1732,0.0206411
0.033995,0.034153,0.0489378,0.000158001,0.0149428,True,True,True,-16.1732,0.0206411
0.020639,0.020539,0.046393,-9.999983e-05,0.025754,False,True,False,-16.1732,0.0206411
0.034929,0.034932,0.0490472,2.99886e-06,0.0141182,True,True,True,-16.1732,0.0206411
0.033652,0.033741,0.0488885,8.900091e-05,0.0152365,True,True,True,-16.1732,0.0206411
0.021244,0.021295,0.0465263,5.09992e-05,0.0252823,True,True,True,-16.1732,0.0206411
0.030243,0.030353,0.0481121,0.00011,0.0178691,True,True,True,-16.1732,0.0206411
0.032518,0.032525,0.0486506,6.99982e-06,0.0161326,True,True,True,-16.1732,0.0206411
0.034151,0.034081,0.0489581,-6.99982e-05,0.0148071,False,True,False,-16.1732,0.0206411
0.031699,0.031709,0.0484813,9.998679e-06,0.0167823,True,True,True,-16.1732,0.0206411
0.026734,0.026763,0.0475318,2.89995e-05,0.0207978,True,True,True,-16.1732,0.0206411
0.032288,0.032379,0.0486377,9.100139e-05,0.0163497,True,True,True,-16.1732,0.0206411
0.032156,0.032251,0.0486324,9.499863e-05,0.0164764,True,True,True,-16.1732,0.0206411
0.034706,0.034702,0.049018,-4.000962e-06,0.014312,False,True,False,-16.1732,0.0206411
0.0327,0.032496,0.0487153,-0.0002039969,0.0160153,False,True,False,-16.1732,0.0206411
0.034488,0.034451,0.0489988,-3.69996e-05,0.0145108,False,True,False,-16.1732,0.0206411
0.03184,0.031927,0.0485241,8.700043e-05,0.0166841,True,True,True,-16.1732,0.0206411
0.020569,0.020606,0.0463753,3.69996e-05,0.0258063,True,True,True,-16.1732,0.0206411
0.020382,0.020317,0.0463345,-6.500073e-05,0.0259525,False,True,False,-16.1732,0.0206411
0.02713,0.026965,0.0475899,-0.000165001,0.0204599,False,True,False,-16.1732,0.0206411
0.029486,0.029594,0.0479721,0.000108,0.0184861,True,True,True,-16.1732,0.0206411
0.020507,0.020573,0.0463853,6.59991e-05,0.0258783,True,True,True,-16.1732,0.0206411
0.019925,0.020019,0.0464414,9.400025e-05,0.0265164,True,True,True,-16.1732,0.0206411
0.034679,0.034488,0.0490244,-0.000190999,0.0143454,False,True,False,-16.1732,0.0206411
0.028682,0.028704,0.0478576,2.20016e-05,0.0191756,True,True,True,-16.1732,0.0206411

File: _ridge_TGA.csv
x_test,y_test,y_pred,GerçekFark,TahminFark,Gerçek,Tahmin,Ongoru,Skor,mean_squared_error
0.030105,0.030097,0.02810248,-8.000061e-06,-0.00200252,False,False,False,0.582556,0.003218142
0.032745,0.032641,0.0292823,-0.000103999,-0.003462717,False,False,False,0.582556,0.003218142
0.03332,0.033435,0.0295778,0.000115,-0.00374217,True,False,False,0.582556,0.003218142
0.028366,0.028439,0.0275712,7.300079e-05,-0.0007948484,True,False,False,0.582556,0.003218142
0.032941,0.032965,0.0294026,2.4002e-05,-0.00353835,True,False,False,0.582556,0.003218142
0.030497,0.030603,0.0284281,0.000106001,-0.00206885,True,False,False,0.582556,0.003218142
0.027652,0.027759,0.0273482,0.000107002,-0.000303842,True,False,False,0.582556,0.003218142
0.02538,0.025324,0.0265904,-5.60004e-05,0.00121037,False,True,False,0.582556,0.003218142
0.027056,0.027138,0.0271886,8.200109e-05,0.0001326,True,True,True,0.582556,0.003218142
0.030557,0.030629,0.0283276,7.200055e-05,-0.00222935,True,False,False,0.582556,0.003218142
0.033292,0.033251,0.0295092,-4.10005e-05,-0.00378281,False,False,False,0.582556,0.003218142
0.031954,0.031921,0.02892987,-3.30023e-05,-0.003024131,False,False,False,0.582556,0.003218142
0.028584,0.028682,0.0276724,9.799935e-05,-0.0009116139,True,False,False,0.582556,0.003218142
0.020102,0.020169,0.024817,6.69993e-05,0.00471501,True,True,True,0.582556,0.003218142
0.021469,0.021454,0.0252494,-1.49999e-05,0.00378039,False,True,False,0.582556,0.003218142
0.024537,0.024508,0.0262793,-2.90014e-05,0.00174234,False,True,False,0.582556,0.003218142
0.033696,0.033657,0.0296451,-3.90001e-05,-0.004050901,False,False,False,0.582556,0.003218142
0.023806,0.023888,0.0260357,8.199923e-05,0.00222972,True,True,True,0.582556,0.003218142
0.022577,0.02261,0.025581,3.299862e-05,0.00300398,True,True,True,0.582556,0.003218142
0.026672,0.026697,0.027079,2.50004e-05,0.000406973,True,True,True,0.582556,0.003218142
0.021278,0.021287,0.02517821,9.000301e-06,0.00390021,True,True,True,0.582556,0.003218142
0.03593,0.036027,0.0301887,9.699911e-05,-0.005741302,True,False,False,0.582556,0.003218142
0.026156,0.026172,0.02681926,1.60001e-05,0.00066326,True,True,True,0.582556,0.003218142
0.022494,0.022524,0.0256751,2.99998e-05,0.00318106,True,True,True,0.582556,0.003218142
0.020425,0.020481,0.02490938,5.60004e-05,0.00448438,True,True,True,0.582556,0.003218142
0.025636,0.025675,0.0266722,3.90001e-05,0.00103624,True,True,True,0.582556,0.003218142
0.028868,0.02898,0.0277463,0.000112001,-0.00112173,True,False,False,0.582556,0.003218142
0.024023,0.02406,0.02608079,3.69996e-05,0.00205779,True,True,True,0.582556,0.003218142
0.020774,0.020884,0.0250362,0.00011,0.00426223,True,True,True,0.582556,0.003218142
0.034596,0.034697,0.02999083,0.000101,-0.00460517,True,False,False,0.582556,0.003218142
0.026936,0.027122,0.0271541,0.000186,0.000218101,True,True,True,0.582556,0.003218142
0.033105,0.033202,0.0295446,9.699911e-05,-0.00356039,True,False,False,0.582556,0.003218142
0.033214,0.033255,0.0295184,4.10005e-05,-0.00369559,True,False,False,0.582556,0.003218142
0.020661,0.020582,0.0249714,-7.900037e-05,0.004310379,False,True,False,0.582556,0.003218142
0.030233,0.030179,0.0281688,-5.39999e-05,-0.00206419,False,False,False,0.582556,0.003218142
0.033234,0.033036,0.0295385,-0.000197999,-0.00369547,False,False,False,0.582556,0.003218142
0.021169,0.021186,0.0251209,1.70004e-05,0.003951896,True,True,True,0.582556,0.003218142
0.024196,0.024231,0.026156,3.49991e-05,0.00196004,True,True,True,0.582556,0.003218142
0.024231,0.024308,0.0261651,7.699989e-05,0.00193407,True,True,True,0.582556,0.003218142
0.02725,0.027408,0.0272181,0.000158001,-3.19313e-05,True,False,False,0.582556,0.003218142
0.032525,0.032675,0.0291145,0.000150003,-0.003410451,True,False,False,0.582556,0.003218142
0.020215,0.020352,0.0248548,0.000137001,0.004639838,True,True,True,0.582556,0.003218142
0.022861,0.023367,0.02585295,0.0005060006,0.00299195,True,True,True,0.582556,0.003218142
0.022524,0.022523,0.0256811,-9.983778e-07,0.00315706,False,True,False,0.582556,0.003218142
0.034372,0.034448,0.0299345,7.600337e-05,-0.0044375,True,False,False,0.582556,0.003218142
0.029546,0.029597,0.02793465,5.09992e-05,-0.00161135,True,False,False,0.582556,0.003218142
0.032898,0.032985,0.0293118,8.700043e-05,-0.00358622,True,False,False,0.582556,0.003218142
0.021307,0.021319,0.0251728,1.199916e-05,0.00386575,True,True,True,0.582556,0.003218142
0.020019,0.020102,0.02481222,8.299947e-05,0.00479322,True,True,True,0.582556,0.003218142
0.027501,0.027553,0.0272638,5.19995e-05,-0.000237195,True,False,False,0.582556,0.003218142
0.022569,0.02268,0.02561384,0.000110999,0.00304484,True,True,True,0.582556,0.003218142
0.03423,0.03442,0.02993,0.000189997,-0.004299976,True,False,False,0.582556,0.003218142
0.033587,0.033669,0.02961227,8.19974e-05,-0.003974732,True,False,False,0.582556,0.003218142
0.030459,0.030469,0.0283941,1.00005e-05,-0.00206487,True,False,False,0.582556,0.003218142
0.031508,0.031492,0.0287186,-1.60001e-05,-0.00278936,False,False,False,0.582556,0.003218142
0.024382,0.024354,0.026209,-2.80011e-05,0.00182698,False,True,False,0.582556,0.003218142
0.021061,0.021058,0.0250805,-2.99886e-06,0.004019499,False,True,False,0.582556,0.003218142
0.026341,0.026369,0.0268565,2.79993e-05,0.0005155001,True,True,True,0.582556,0.003218142
0.022757,0.022782,0.0257631,2.50004e-05,0.00300611,True,True,True,0.582556,0.003218142
0.02253,0.022494,0.02567517,-3.60012e-05,0.00314517,False,True,False,0.582556,0.003218142
0.034405,0.034509,0.0298317,0.000103999,-0.00457327,True,False,False,0.582556,0.003218142
0.034697,0.034706,0.0300026,9.000301e-06,-0.004694402,True,False,False,0.582556,0.003218142
0.033995,0.034153,0.0297593,0.000158001,-0.004235655,True,False,False,0.582556,0.003218142
0.020639,0.020539,0.0249782,-9.999983e-05,0.00433919,False,True,False,0.582556,0.003218142
0.034929,0.034932,0.0300487,2.99886e-06,-0.004880322,True,False,False,0.582556,0.003218142
0.033652,0.033741,0.0296327,8.900091e-05,-0.00401934,True,False,False,0.582556,0.003218142
0.021244,0.021295,0.0252164,5.09992e-05,0.003972372,True,True,True,0.582556,0.003218142
0.030243,0.030353,0.0281969,0.00011,-0.00204613,True,False,False,0.582556,0.003218142
0.032518,0.032525,0.0291081,6.99982e-06,-0.00340988,True,False,False,0.582556,0.003218142
0.034151,0.034081,0.0297643,-6.99982e-05,-0.004386738,False,False,False,0.582556,0.003218142
0.031699,0.031709,0.0288357,9.998679e-06,-0.00286334,True,False,False,0.582556,0.003218142
0.026734,0.026763,0.0270966,2.89995e-05,0.0003626328,True,True,True,0.582556,0.003218142
0.032288,0.032379,0.0291491,9.100139e-05,-0.00313888,True,False,False,0.582556,0.003218142
0.032156,0.032251,0.0291626,9.499863e-05,-0.00299339,True,False,False,0.582556,0.003218142
0.034706,0.034702,0.0300066,-4.000962e-06,-0.0046994,False,False,False,0.582556,0.003218142
0.0327,0.032496,0.02924535,-0.0002039969,-0.003454648,False,False,False,0.582556,0.003218142
0.034488,0.034451,0.0298704,-3.69996e-05,-0.004617594,False,False,False,0.582556,0.003218142
0.03184,0.031927,0.02890763,8.700043e-05,-0.00293237,True,False,False,0.582556,0.003218142
0.020569,0.020606,0.0249404,3.69996e-05,0.00437138,True,True,True,0.582556,0.003218142
0.020382,0.020317,0.0248298,-6.500073e-05,0.00444778,False,True,False,0.582556,0.003218142
0.02713,0.026965,0.0271821,-0.000165001,5.21373e-05,False,True,False,0.582556,0.003218142
0.029486,0.029594,0.0279109,0.000108,-0.00157509,True,False,False,0.582556,0.003218142
0.020507,0.020573,0.0249721,6.59991e-05,0.0044651,True,True,True,0.582556,0.003218142
0.019925,0.020019,0.02480684,9.400025e-05,0.00488184,True,True,True,0.582556,0.003218142
0.034679,0.034488,0.0298819,-0.000190999,-0.00479712,False,False,False,0.582556,0.003218142
0.028682,0.028704,0.02768963,2.20016e-05,-0.0009923689,True,False,False,0.582556,0.003218142

File: LinearRegression_TGA.csv
x_test,y_test,y_pred,GerçekFark,TahminFark,Gerçek,Tahmin,Ongoru,Skor,mean_squared_error
0.030105,0.030097,0.0300881,-8.000061e-06,-1.68588e-05,False,False,False,0.999648,9.34307e-05
0.032745,0.032641,0.0327435,-0.000103999,-1.51619e-06,False,False,False,0.999648,9.34307e-05
0.03332,0.033435,0.0333424,0.000115,2.238527e-05,True,True,True,0.999648,9.34307e-05
0.028366,0.028439,0.0283739,7.300079e-05,7.86595e-06,True,True,True,0.999648,9.34307e-05
0.032941,0.032965,0.03296928,2.4002e-05,2.82824e-05,True,True,True,0.999648,9.34307e-05
0.030497,0.030603,0.0305354,0.000106001,3.83891e-05,True,True,True,0.999648,9.34307e-05
0.027652,0.027759,0.0276576,0.000107002,5.563721e-06,True,True,True,0.999648,9.34307e-05
0.02538,0.025324,0.02539959,-5.60004e-05,1.95894e-05,False,True,False,0.999648,9.34307e-05
0.027056,0.027138,0.02706311,8.200109e-05,7.111579e-06,True,True,True,0.999648,9.34307e-05
0.030557,0.030629,0.03056866,7.200055e-05,1.16602e-05,True,True,True,0.999648,9.34307e-05
0.033292,0.033251,0.0332951,-4.10005e-05,3.065914e-06,False,True,False,0.999648,9.34307e-05
0.031954,0.031921,0.0319704,-3.30023e-05,1.63503e-05,False,True,False,0.999648,9.34307e-05
0.028584,0.028682,0.02860144,9.799935e-05,1.74399e-05,True,True,True,0.999648,9.34307e-05
0.020102,0.020169,0.02011153,6.69993e-05,9.529293e-06,True,True,True,0.999648,9.34307e-05
0.021469,0.021454,0.0214947,-1.49999e-05,2.57362e-05,False,True,False,0.999648,9.34307e-05
0.024537,0.024508,0.02455356,-2.90014e-05,1.65589e-05,False,True,False,0.999648,9.34307e-05
0.033696,0.033657,0.03369256,-3.90001e-05,-3.438443e-06,False,False,False,0.999648,9.34307e-05
0.023806,0.023888,0.02381959,8.199923e-05,1.35899e-05,True,True,True,0.999648,9.34307e-05
0.022577,0.02261,0.0225894,3.299862e-05,1.24164e-05,True,True,True,0.999648,9.34307e-05
0.026672,0.026697,0.0266995,2.50004e-05,2.7461e-05,True,True,True,0.999648,9.34307e-05
0.021278,0.021287,0.021307,9.000301e-06,2.90275e-05,True,True,True,0.999648,9.34307e-05
0.03593,0.036027,0.0358435,9.699911e-05,-8.645654e-05,True,False,False,0.999648,9.34307e-05
0.026156,0.026172,0.0261576,1.60001e-05,1.6056e-06,True,True,True,0.999648,9.34307e-05
0.022494,0.022524,0.0225537,2.99998e-05,5.970709e-05,True,True,True,0.999648,9.34307e-05
0.020425,0.020481,0.0204666,5.60004e-05,4.15724e-05,True,True,True,0.999648,9.34307e-05
0.025636,0.025675,0.02564646,3.90001e-05,1.04588e-05,True,True,True,0.999648,9.34307e-05
0.028868,0.02898,0.0288749,0.000112001,6.89551e-06,True,True,True,0.999648,9.34307e-05
0.024023,0.02406,0.0240245,3.69996e-05,1.45845e-06,True,True,True,0.999648,9.34307e-05
0.020774,0.020884,0.0208094,0.00011,3.54294e-05,True,True,True,0.999648,9.34307e-05
0.034596,0.034697,0.0346045,0.000101,8.512288e-06,True,True,True,0.999648,9.34307e-05
0.026936,0.027122,0.02694766,0.000186,1.16602e-05,True,True,True,0.999648,9.34307e-05
0.033105,0.033202,0.03314793,9.699911e-05,4.29302e-05,True,True,True,0.999648,9.34307e-05
0.033214,0.033255,0.0332306,4.10005e-05,1.65664e-05,True,True,True,0.999648,9.34307e-05
0.020661,0.020582,0.0206906,-7.900037e-05,2.95565e-05,False,True,False,0.999648,9.34307e-05
0.030233,0.030179,0.0302273,-5.39999e-05,-5.67548e-06,False,False,False,0.999648,9.34307e-05
0.033234,0.033036,0.03325656,-0.000197999,2.25604e-05,False,True,False,0.999648,9.34307e-05
0.021169,0.021186,0.0211855,1.70004e-05,1.65422e-05,True,True,True,0.999648,9.34307e-05
0.024196,0.024231,0.0242085,3.49991e-05,1.24667e-05,True,True,True,0.999648,9.34307e-05
0.024231,0.024308,0.0242425,7.699989e-05,1.14758e-05,True,True,True,0.999648,9.34307e-05
0.02725,0.027408,0.0272442,0.000158001,-5.79096e-06,True,False,False,0.999648,9.34307e-05
0.032525,0.032675,0.0325157,0.000150003,-9.316951e-06,True,False,False,0.999648,9.34307e-05
0.020215,0.020352,0.0202665,0.000137001,5.14667e-05,True,True,True,0.999648,9.34307e-05
0.022861,0.023367,0.0229274,0.0005060006,6.64033e-05,True,True,True,0.999648,9.34307e-05
0.022524,0.022523,0.02258136,-9.983778e-07,5.73602e-05,False,True,False,0.999648,9.34307e-05
0.034372,0.034448,0.0344043,7.600337e-05,3.228709e-05,True,True,True,0.999648,9.34307e-05
0.029546,0.029597,0.02953244,5.09992e-05,-1.35601e-05,True,False,False,0.999648,9.34307e-05
0.032898,0.032985,0.03288795,8.700043e-05,-1.00508e-05,True,False,False,0.999648,9.34307e-05
0.021307,0.021319,0.0213295,1.199916e-05,2.25045e-05,True,True,True,0.999648,9.34307e-05
0.020019,0.020102,0.0200336,8.299947e-05,1.46143e-05,True,True,True,0.999648,9.34307e-05
0.027501,0.027553,0.0274851,5.19995e-05,-1.591444e-05,True,False,False,0.999648,9.34307e-05
0.022569,0.02268,0.0225962,0.000110999,2.72114e-05,True,True,True,0.999648,9.34307e-05
0.03423,0.03442,0.0342779,0.000189997,4.788488e-05,True,True,True,0.999648,9.34307e-05
0.033587,0.033669,0.0335873,8.19974e-05,3.12924e-07,True,True,True,0.999648,9.34307e-05
0.030459,0.030469,0.030496,1.00005e-05,3.69661e-05,True,True,True,0.999648,9.34307e-05
0.031508,0.031492,0.0315138,-1.60001e-05,5.789101e-06,False,True,False,0.999648,9.34307e-05
0.024382,0.024354,0.024392,-2.80011e-05,9.99682e-06,False,True,False,0.999648,9.34307e-05
0.021061,0.021058,0.0210761,-2.99886e-06,1.50856e-05,False,True,False,0.999648,9.34307e-05
0.026341,0.026369,0.0263342,2.79993e-05,-6.76326e-06,True,False,False,0.999648,9.34307e-05
0.022757,0.022782,0.0228014,2.50004e-05,4.44148e-05,True,True,True,0.999648,9.34307e-05
0.02253,0.022494,0.0225857,-3.60012e-05,5.56912e-05,False,True,False,0.999648,9.34307e-05
0.034405,0.034509,0.0343927,0.000103999,-1.231581e-05,True,False,False,0.999648,9.34307e-05
0.034697,0.034706,0.034696,9.000301e-06,-1.04681e-06,True,False,False,0.999648,9.34307e-05
0.033995,0.034153,0.0340057,0.000158001,1.06581e-05,True,True,True,0.999648,9.34307e-05
0.020639,0.020539,0.0206726,-9.999983e-05,3.36003e-05,False,True,False,0.999648,9.34307e-05
0.034929,0.034932,0.0349122,2.99886e-06,-1.67936e-05,True,False,False,0.999648,9.34307e-05
0.033652,0.033741,0.0336502,8.900091e-05,-1.847744e-06,True,False,False,0.999648,9.34307e-05
0.021244,0.021295,0.0212887,5.09992e-05,4.467368e-05,True,True,True,0.999648,9.34307e-05
0.030243,0.030353,0.03024794,0.00011,4.939735e-06,True,True,True,0.999648,9.34307e-05
0.032518,0.032525,0.0325071,6.99982e-06,-1.09151e-05,True,False,False,0.999648,9.34307e-05
0.034151,0.034081,0.03414145,-6.99982e-05,-9.547919e-06,False,False,False,0.999648,9.34307e-05
0.031699,0.031709,0.0317217,9.998679e-06,2.27019e-05,True,True,True,0.999648,9.34307e-05
0.026734,0.026763,0.02675685,2.89995e-05,2.28491e-05,True,True,True,0.999648,9.34307e-05
0.032288,0.032379,0.0323163,9.100139e-05,2.83048e-05,True,True,True,0.999648,9.34307e-05
0.032156,0.032251,0.0322015,9.499863e-05,4.548207e-05,True,True,True,0.999648,9.34307e-05
0.034706,0.034702,0.03470464,-4.000962e-06,-1.359731e-06,False,False,False,0.999648,9.34307e-05
0.0327,0.032496,0.0326891,-0.0002039969,-1.09337e-05,False,False,False,0.999648,9.34307e-05
0.034488,0.034451,0.0344827,-3.69996e-05,-5.34207e-06,False,False,False,0.999648,9.34307e-05
0.03184,0.031927,0.0318641,8.700043e-05,2.4084e-05,True,True,True,0.999648,9.34307e-05
0.020569,0.020606,0.0206016,3.69996e-05,3.25665e-05,True,True,True,0.999648,9.34307e-05
0.020382,0.020317,0.0204052,-6.500073e-05,2.31937e-05,False,True,False,0.999648,9.34307e-05
0.02713,0.026965,0.0271258,-0.000165001,-4.151836e-06,False,False,False,0.999648,9.34307e-05
0.029486,0.029594,0.0294709,0.000108,-1.50539e-05,True,False,False,0.999648,9.34307e-05
0.020507,0.020573,0.0205541,6.59991e-05,4.71361e-05,True,True,True,0.999648,9.34307e-05
0.019925,0.020019,0.0199461,9.400025e-05,2.10665e-05,True,True,True,0.999648,9.34307e-05
0.034679,0.034488,0.0346521,-0.000190999,-2.69003e-05,False,False,False,0.999648,9.34307e-05
0.028682,0.028704,0.0286931,2.20016e-05,1.10678e-05,True,True,True,0.999648,9.34307e-05